TITLE	
DATA TYPE	
ORIGIN	JASCO
OWNER	
DATE	22/11/10
TIME	16:32:37
SPECTROMETER/DATA SYSTEM	JASCO Corp., J-810, Rev. 1.00
RESOLUTION	
DELTAX	-1
XUNITS	NANOMETERS
YUNITS	CD[mdeg]
Y2UNITS	HT[V]
Y3UNITS	ABSORBANCE
FIRSTX	400.0000
LASTX	200.0000
NPOINTS	201
FIRSTY	0.88683
MAXY	1.24908
MINY	-1.80862
XYDATA
400.0000	0.886826	282.559	1.06241
399.0000	0.665961	281.553	1.05127
398.0000	0.556525	280.481	1.03938
397.0000	0.800165	279.46	1.02803
396.0000	1.0893	278.815	1.02085
395.0000	1.24908	278.689	1.01944
394.0000	0.981219	278.814	1.02083
393.0000	1.03167	278.854	1.02127
392.0000	1.03932	278.888	1.02166
391.0000	0.690375	278.841	1.02113
390.0000	0.672491	278.684	1.01938
389.0000	0.77308	278.484	1.01716
388.0000	0.847137	278.348	1.01563
387.0000	0.989603	278.247	1.01451
386.0000	0.778659	278.061	1.01243
385.0000	0.93555	277.775	1.00875
384.0000	1.01598	277.366	1.00344
383.0000	0.944989	277	0.99869
382.0000	0.688376	276.576	0.993196
381.0000	0.737027	276.127	0.987367
380.0000	1.06063	275.727	0.982179
379.0000	1.00152	275.417	0.978165
378.0000	0.889563	275.127	0.974402
377.0000	0.824652	274.845	0.970736
376.0000	0.780707	274.616	0.967775
375.0000	0.477722	274.42	0.965222
374.0000	0.158224	274.191	0.962258
373.0000	0.223322	273.849	0.95782
372.0000	0.427246	273.478	0.953008
371.0000	0.624728	273.127	0.948456
370.0000	0.66048	272.825	0.944545
369.0000	0.308875	272.565	0.941168
368.0000	0.311176	272.342	0.938272
367.0000	0.527301	272.206	0.936512
366.0000	0.534598	272.048	0.934465
365.0000	0.414627	271.928	0.932907
364.0000	0.119373	271.824	0.931552
363.0000	0.193387	271.642	0.929193
362.0000	0.518634	271.477	0.927051
361.0000	0.437088	271.375	0.925731
360.0000	0.320767	271.232	0.923883
359.0000	0.302045	271.104	0.922224
358.0000	0.585928	270.989	0.920723
357.0000	0.52319	270.851	0.918933
356.0000	0.373163	270.785	0.918082
355.0000	0.468259	270.758	0.917728
354.0000	0.423343	270.688	0.916825
353.0000	0.428537	270.627	0.91603
352.0000	0.45079	270.534	0.914829
351.0000	0.53468	270.494	0.914306
350.0000	0.482254	270.404	0.913146
349.0000	0.388602	270.311	0.911939
348.0000	0.267932	270.24	0.911019
347.0000	0.137552	270.191	0.910379
346.0000	0.429971	270.121	0.909471
345.0000	0.297598	270.053	0.908581
344.0000	0.410226	269.984	0.907689
343.0000	0.34726	269.952	0.907279
342.0000	0.0541473	269.901	0.906611
341.0000	-0.0253876	269.776	0.904996
340.0000	0.117957	269.695	0.903947
339.0000	0.0195709	269.609	0.902827
338.0000	0.0228424	269.515	0.901615
337.0000	0.0971191	269.494	0.901337
336.0000	0.0211639	269.457	0.900863
335.0000	-0.162131	269.445	0.900701
334.0000	-0.0154572	269.426	0.900453
333.0000	0.00372314	269.404	0.900169
332.0000	0.216089	269.389	0.899975
331.0000	0.113831	269.357	0.899562
330.0000	-0.0931244	269.4	0.900118
329.0000	-0.149081	269.442	0.900664
328.0000	-0.016861	269.415	0.900307
327.0000	-0.0773682	269.398	0.900087
326.0000	-0.430756	269.39	0.899984
325.0000	-0.0415283	269.372	0.899755
324.0000	0.08125	269.316	0.899025
323.0000	-0.141656	269.06	0.895706
322.0000	-0.29783	268.905	0.893699
321.0000	-0.109842	269.141	0.896754
320.0000	-0.110156	269.324	0.899138
319.0000	0.0560944	269.359	0.899585
318.0000	-0.116153	269.359	0.899593
317.0000	-0.198404	269.351	0.899484
316.0000	-0.1302	269.363	0.899643
315.0000	-0.211594	269.377	0.899821
314.0000	-0.0579224	269.287	0.898658
313.0000	-0.0589722	269.194	0.897449
312.0000	-0.160071	269.158	0.896978
311.0000	-0.243042	269.334	0.899259
310.0000	-0.261145	269.601	0.902728
309.0000	-0.440451	269.727	0.904356
308.0000	-0.24176	269.792	0.905203
307.0000	-0.142413	269.892	0.906493
306.0000	-0.26105	269.962	0.907407
305.0000	-0.443719	270.013	0.908074
304.0000	-0.699155	270.122	0.909486
303.0000	-0.405472	270.226	0.910831
302.0000	-0.492627	270.356	0.91252
301.0000	-0.660556	270.452	0.913761
300.0000	-0.645282	270.517	0.914607
299.0000	-0.684717	270.612	0.915836
298.0000	-0.537109	270.721	0.917254
297.0000	-0.451144	270.798	0.918253
296.0000	-0.396976	270.922	0.919863
295.0000	-0.539737	271.02	0.921134
294.0000	-0.54104	271.101	0.922174
293.0000	-0.61658	271.149	0.922808
292.0000	-0.475635	271.138	0.922663
291.0000	-0.206958	270.82	0.918535
290.0000	-0.0075531	270.959	0.920332
289.0000	-0.344458	271.591	0.928529
288.0000	-0.410999	271.821	0.931522
287.0000	-0.238019	271.962	0.933352
286.0000	-0.302866	272.157	0.93587
285.0000	-0.376309	272.381	0.938775
284.0000	-0.494891	272.581	0.941378
283.0000	-0.258475	272.777	0.943924
282.0000	-0.549207	272.993	0.946717
281.0000	-0.868677	273.176	0.949095
280.0000	-0.698862	273.353	0.951386
279.0000	-0.584317	273.612	0.954745
278.0000	-0.660971	273.874	0.958145
277.0000	-0.517706	274.114	0.961262
276.0000	-0.375363	274.39	0.964834
275.0000	-0.336441	274.664	0.968387
274.0000	-0.24458	274.86	0.970936
273.0000	-0.183838	275.083	0.973823
272.0000	-0.298618	275.322	0.976926
271.0000	-0.228198	275.605	0.980591
270.0000	-0.0999908	275.958	0.985178
269.0000	-0.179767	276.426	0.991239
268.0000	-0.495459	276.929	0.997774
267.0000	-0.487454	277.411	1.00403
266.0000	-0.297202	277.916	1.01057
265.0000	-0.00758667	278.463	1.01693
264.0000	-0.117627	279.017	1.02309
263.0000	-0.102045	279.578	1.02935
262.0000	-0.180988	280.148	1.03568
261.0000	-0.397592	280.794	1.04286
260.0000	-0.372736	281.475	1.0504
259.0000	-0.0291351	282.137	1.05773
258.0000	0.0339539	282.741	1.06442
257.0000	-0.00745544	283.348	1.07112
256.0000	-0.255023	284.027	1.07861
255.0000	-0.364499	284.722	1.08627
254.0000	-0.502896	285.437	1.09413
253.0000	-0.466464	286.105	1.10146
252.0000	-0.165738	286.844	1.10956
251.0000	-0.437308	287.572	1.11754
250.0000	-0.387671	288.277	1.12524
249.0000	-0.60611	288.985	1.13297
248.0000	-0.707636	289.621	1.1399
247.0000	-0.435086	290.376	1.14811
246.0000	-0.17673	291.197	1.15703
245.0000	-0.386655	291.981	1.16553
244.0000	-0.532886	292.724	1.17357
243.0000	-0.609949	293.555	1.18256
242.0000	-0.386758	294.441	1.19212
241.0000	-0.331912	295.373	1.20215
240.0000	-0.569345	296.389	1.21306
239.0000	-0.547971	297.51	1.22507
238.0000	-0.630591	298.634	1.23709
237.0000	-0.420612	299.877	1.25034
236.0000	-0.709033	301.167	1.26406
235.0000	-0.644153	302.517	1.27837
234.0000	-1.08282	303.956	1.29358
233.0000	-1.09323	305.505	1.30989
232.0000	-0.677527	307.028	1.32588
231.0000	-0.506635	308.633	1.34267
230.0000	-0.592633	310.204	1.35904
229.0000	-0.475723	311.878	1.37642
228.0000	-1.24008	313.61	1.39434
227.0000	-1.16385	315.276	1.4115
226.0000	-0.765607	316.92	1.42838
225.0000	-1.12912	318.546	1.445
224.0000	-1.03403	320.158	1.46142
223.0000	-0.800677	321.695	1.47703
222.0000	-0.593445	323.247	1.49272
221.0000	-0.337048	324.792	1.50829
220.0000	-0.265067	326.287	1.5233
219.0000	-1.10544	327.733	1.53777
218.0000	-1.51631	329.136	1.55176
217.0000	-1.34868	330.45	1.56483
216.0000	-1.78828	331.669	1.5769
215.0000	-1.24934	332.846	1.58854
214.0000	-0.852591	333.891	1.59884
213.0000	-0.929163	334.948	1.60923
212.0000	-1.30472	336.037	1.61991
211.0000	-1.43928	337.065	1.62997
210.0000	-0.688647	338.035	1.63942
209.0000	-0.680774	338.948	1.64831
208.0000	-1.23334	339.865	1.65722
207.0000	-1.80862	340.81	1.66638
206.0000	-1.14254	341.885	1.67678
205.0000	-0.560733	343.056	1.68807
204.0000	-1.07543	344.43	1.70127
203.0000	-0.83884	346.155	1.71779
202.0000	-1.09904	348.546	1.74056
201.0000	-0.789575	351.833	1.77165
200.0000	-1.085	356.262	1.81314